Folder: ACADB_brGDGT_calibrations/Results

Note: readme.md
# BRT calibration for Arid Central Asian brGDGT studies

## Project description
This GitHub project is associated to

## How to install/run the ACADB brGDGT calibration ?

## Use it for your paleo brGDGT data
1. Import your paleo data:
- The brGDGT paleo matrix should be in .csv using comma as separator and . as decimal
- The name of the column should be similar to the one of XRD.csv, the paleo exemple

File: XRD_BRT_BRT_brACA.csv
"","Age","MPCOQ","MAAT","MAF","AI"
"1",56,36.997,8.28232,11.3107,2464.8
"2",141,36.8272,6.73354,11.3116,1771.9
"3",441,42.0503,9.76385,11.8405,2494.59
"4",672,29.7322,7.84996,13.9015,1580.84
"5",918,16.4191,2.97427,10.7283,949.72
"6",1158,14.9022,4.10851,11.1978,2288.77
"7",1393,5.05357,-0.403309,7.09105,2507.72
"8",1640,4.56947,-1.63968,6.98268,2497.48
"9",1883,-10.2039,-1.06823,6.99539,2902.18
"10",2227,-1.11674,-0.562347,7.07222,3706.87
"11",2392,-8.25403,-0.782049,7.03442,3720.16
"12",2568,-2.43238,0.779079,8.38328,3536.03
"13",2747,-5.30281,1.27531,10.1779,3254.66
"14",2910,9.16716,2.28953,9.98654,3645.44
"15",3083,1.98769,2.13653,8.99382,3482.13
"16",3237,2.53059,0.614076,8.55234,3281.27
"17",3360,9.69502,1.78563,9.56672,3268.95
"18",3478,7.9168,2.52184,8.44109,3894.28
"19",3598,7.65004,3.1887,9.62736,2994.27
"20",3716,54.9099,7.69009,12.9761,2346.83
"21",3835,50.7777,8.84523,11.9844,2969.47
"22",3950,29.1165,3.53326,9.25242,3339.82
"23",4071,38.7951,3.39619,7.60619,3430
"24",4183,5.66016,1.16561,6.52558,3571.81
"25",4302,3.36592,-0.896966,6.0936,3370.91
"26",4422,9.63959,2.83791,7.42263,3243.91
"27",4537,23.2358,1.52747,8.22371,3396.39
"28",4645,45.4547,0.410797,8.28359,3354.65
"29",4786,-0.0317689,-1.31839,5.92753,3458.3
"30",4923,31.8904,0.61587,8.04475,3635.66
"31",5057,11.7562,-1.73278,7.14755,3464.72
"32",5173,9.04624,-1.64752,6.86614,4008.3
"33",5289,39.2474,-0.476637,8.16006,3052.69
"34",5403,-2.33199,-0.960532,6.82146,3737.09
"35",5517,-7.34272,-3.07114,6.83372,4159.95
"36",5601,2.25195,-0.687753,7.58017,3878.53
"37",5683,9.44273,-1.4372,6.89985,3422.25
"38",5766,-10.7258,0.140836,8.46791,3334.26
"39",5849,11.9427,-1.03416,7.82441,4142.62
"40",5932,13.3368,-0.218149,8.54171,4263.06
"41",6056,56.0402,-1.5381,7.80087,3111.49
"42",6182,7.17612,-1.93838,8.21364,3672.15
"43",6308,26.4155,-1.21137,8.10911,3646.58
"44",6435,18.0311,-2.65738,6.41097,4177.6
"45",6562,12.858,-0.458984,8.21894,4033.25
"46",6688,61.6375,-1.03833,7.83206,4246.66
"47",6815,20.2669,-3.09253,6.02304,3029.72
"48",6943,12.4384,-2.72201,7.06862,3182.14
"49",7075,-0.459862,-2.55871,6.96041,3429.51
"50",7273,3.69269,-0.909082,8.14621,3941.87

File: XRD_BRT_BRT_brACA_karid.csv
"","Age","MPCOQ","MAAT","MAF","AI"
"1",56,41.283,7.51957,10.8295,2342.11
"2",141,43.6458,6.31567,11.117,1653.32
"3",441,46.4884,8.51634,11.5562,2536.33
"4",672,40.1567,7.47978,13.7689,1442.57
"5",918,18.923,3.85639,10.9983,1157.2
"6",1158,15.2272,4.72482,11.0021,2440.87
"7",1393,26.2755,0.168198,7.54625,2940.51
"8",1640,9.98676,-0.657617,8.3191,2547.48
"9",1883,8.72416,-0.808436,7.16458,2832.06
"10",2227,-5.92006,0.039504,7.74174,3694.83
"11",2392,-21.4591,-0.748554,8.86803,3322.56
"12",2568,-3.77853,1.47433,9.67213,3399.66
"13",2747,-10.4759,0.549409,10.0708,3131.2
"14",2910,7.28766,2.3432,10.6232,3468.18
"15",3083,-2.34026,2.96292,9.34193,3585.02
"16",3237,3.49097,1.18573,9.80148,3307.25
"17",3360,12.3985,1.77056,11.6052,3307.77
"18",3478,2.44796,4.42889,10.0755,3263.46
"19",3598,11.457,3.55752,10.0157,3214.78
"20",3716,67.7384,8.46305,13.0251,2586
"21",3835,62.2174,9.05403,12.5156,2882.69
"22",3950,35.0023,4.41027,9.19766,3458.13
"23",4071,63.8476,3.82086,8.41203,3561.2
"24",4183,27.1083,2.08268,7.35562,3437.11
"25",4302,16.4701,0.0252128,7.53088,3276.07
"26",4422,20.6501,3.11805,7.73707,3180.32
"27",4537,48.08,2.22029,9.05027,3497.31
"28",4645,58.632,-0.991177,7.70591,3142.91
"29",4786,14.863,-0.379147,7.15908,3292.39
"30",4923,99.1587,4.07639,8.43212,3766.28
"31",5057,64.2954,2.92159,9.34458,3095.06
"32",5173,29.7826,0.638333,9.13882,3286.63
"33",5289,92.901,2.49487,9.55043,2809.8
"34",5403,14.9458,-1.09217,8.81359,2960.96
"35",5517,31.6556,0.785883,8.69248,3413.65
"36",5601,55.1596,4.69283,9.49367,3540.21
"37",5683,66.0896,0.941548,8.19028,3258.74
"38",5766,35.1847,1.90945,10.1962,2477.04
"39",5849,85.8876,3.47842,11.1023,3253.61
"40",5932,67.8517,3.42674,11.0566,3567.65
"41",6056,113.173,1.23935,8.62679,3714.54
"42",6182,74.4405,0.599551,8.54984,3805.19
"43",6308,98.2384,0.192095,7.7038,3748.4
"44",6435,58.7799,0.464851,8.43317,2933.07
"45",6562,44.1614,1.32502,8.45257,2974.73
"46",6688,80.5774,1.03142,8.02993,3783.68
"47",6815,49.5789,-3.13756,5.92768,3081.89
"48",6943,65.5706,0.214354,7.03848,3603.04
"49",7075,41.8466,0.151559,7.86843,2951.89
"50",7273,57.7389,1.18124,9.52809,3064.45

File: XRD_BRT_BRT_brACA_kwet.csv
"","Age","MPCOQ","MAAT","MAF","AI"
"1",56,21.1443,6.31145,12.5045,2486.45
"2",141,17.9077,6.06428,12.5045,2498.8
"3",441,31.5566,5.69635,12.3911,2621.63
"4",672,27.9147,6.10407,12.7517,2794.57
"5",918,34.3436,6.11057,12.8754,2072.33
"6",1158,34.556,6.03062,12.8878,2443.4
"7",1393,10.396,5.24696,12.4676,2867.7
"8",1640,24.1274,4.8293,10.9485,3342.54
"9",1883,-1.32421,4.49466,11.4842,3267.86
"10",2227,-14.9584,0.600999,7.94623,3553.95
"11",2392,-16.3154,0.0744336,7.86035,3938.1
"12",2568,-22.6047,0.494271,8.70232,3214.97
"13",2747,-9.68376,3.0353,10.6218,3155.6
"14",2910,13.5843,1.0975,9.28164,3541.52
"15",3083,8.47901,2.0883,9.73194,3041.8
"16",3237,-19.9612,0.500673,8.57421,3176.32
"17",3360,0.965093,1.24173,8.46303,3320.81
"18",3478,15.2052,1.11953,8.28777,3625.49
"19",3598,7.67516,2.13641,9.9613,2807.52
"20",3716,39.4928,9.53207,14.993,2017.43
"21",3835,1.6598,3.61464,11.4816,2766.74
"22",3950,5.68851,1.30857,8.12329,2938.53
"23",4071,-1.33345,1.51585,7.28701,2920.87
"24",4183,3.24133,1.63017,6.93755,3205.06
"25",4302,6.37241,1.492,6.93914,3199.12
"26",4422,-0.205339,1.33027,7.71766,2962.23
"27",4537,2.40661,1.74587,7.55421,3485.62
"28",4645,51.2048,4.38531,7.37503,3294.03
"29",4786,-20.9159,1.06255,6.65283,3289.65
"30",4923,35.1541,1.52515,8.31477,3608.78
"31",5057,-19.205,0.993577,7.31408,3424.11
"32",5173,-11.0476,0.705747,6.94826,4076.67
"33",5289,-7.16124,1.06203,7.45386,3475.31
"34",5403,-7.27519,0.107647,6.62535,4258.78
"35",5517,-13.92,-1.17544,6.83601,3940.96
"36",5601,-11.5612,-0.516732,7.34814,3763.29
"37",5683,-11.2277,0.190255,6.93604,3702.51
"38",5766,-19.0132,1.2022,7.36553,3717.13
"39",5849,-12.4079,1.9103,6.84736,3865.35
"40",5932,4.48357,1.99174,8.6072,3902.8
"41",6056,9.98161,1.0334,7.02994,3432.6
"42",6182,4.55785,0.988294,8.17857,3669.79
"43",6308,-6.79807,0.584214,7.82853,3802.28
"44",6435,20.3696,0.693686,6.69363,3798.66
"45",6562,30.3308,1.49749,8.43548,3962.18
"46",6688,33.3738,0.887436,6.6509,4016.98
"47",6815,21.2685,1.485,6.58486,3306.43
"48",6943,-0.647743,0.666534,7.20879,3602.77
"49",7075,26.0496,1.44013,7.81738,3335.99
"50",7273,25.2255,0.754502,8.56158,4109.98